Folder: Python/Stress and Strain Analysis with Matplotlib

Note: README.md
# Python
 Projects created for python 3 using the for the purpose of learning

File: Cast Iron.csv
Time (sec),Extension (in),Load (lbf),Strain 1 (%)
0.00,0.00,-0.02,0.00
1.20,0.00,0.02,0.00
2.40,0.00,2.88,0.00
3.60,0.01,62.32,0.00
4.80,0.01,177.32,0.00
6.00,0.01,317.67,0.00
7.20,0.01,474.08,0.00
8.40,0.01,647.54,0.01
9.60,0.02,838.78,0.01
10.80,0.02,1045.93,0.01
12.00,0.02,1269.82,0.02
13.20,0.02,1507.80,0.02
14.40,0.02,1760.12,0.02
15.60,0.03,2024.37,0.03
16.80,0.03,2298.13,0.03
18.00,0.03,2583.30,0.04
19.20,0.03,2879.97,0.04
20.40,0.03,3186.31,0.05
21.60,0.04,3499.88,0.06
22.80,0.04,3821.35,0.06
24.00,0.04,4150.60,0.07
25.20,0.04,4484.38,0.08
26.40,0.04,4822.77,0.08
27.60,0.05,5164.61,0.09
28.80,0.05,5509.96,0.10
30.00,0.05,5854.85,0.11
31.20,0.05,6198.76,0.12
32.40,0.05,6538.44,0.13
33.60,0.06,6873.06,0.14
34.80,0.06,7197.59,0.16
36.00,0.06,7507.45,0.18
37.20,0.06,7800.23,0.20
38.40,0.06,8075.04,0.22
39.60,0.07,8333.16,0.25
40.80,0.07,8570.23,0.28
42.00,0.07,8786.56,0.32
43.20,0.07,8980.94,0.36
44.40,0.07,9153.23,0.40
45.60,0.08,9301.93,0.45
46.80,0.08,9428.84,0.50
48.00,0.08,9536.81,0.55
49.20,0.08,9629.79,0.61
50.40,0.08,9711.38,0.67
51.60,0.09,9784.87,0.73
52.80,0.09,9851.65,0.79
54.00,0.09,9915.44,0.85
55.20,0.09,9977.14,0.92
56.40,0.09,10035.21,0.98
57.60,0.10,10090.52,1.05
58.80,0.10,10146.44,1.11
60.00,0.10,10201.22,1.17
61.20,0.10,10255.61,1.24
62.40,0.10,10310.02,1.30
63.60,0.11,10363.27,1.36
64.80,0.11,10416.43,1.43
66.00,0.11,10467.00,1.49
67.20,0.11,10516.81,1.55
68.40,0.11,10566.75,1.62
69.60,0.12,10617.12,1.68
70.80,0.12,10666.61,1.74
72.00,0.12,10716.38,1.80
73.20,0.12,10764.68,1.87
74.40,0.12,10812.26,1.93
75.60,0.13,10857.88,1.99
76.80,0.13,10903.87,2.05
78.00,0.13,10949.36,2.11
79.20,0.13,10994.55,2.18
80.40,0.13,11039.04,2.24
81.60,0.14,11084.10,2.30
82.80,0.14,11127.13,2.36
84.00,0.14,11169.86,2.42
85.20,0.14,11211.88,2.48
86.40,0.14,11253.52,2.55
87.60,0.15,11294.22,2.61
88.80,0.15,11335.19,2.67
90.00,0.15,11376.00,2.73
91.20,0.15,11416.04,2.79
92.40,0.15,11456.03,2.86
93.60,0.16,11494.18,2.92
94.80,0.16,11531.16,0.54
96.00,0.16,11567.61,-3.21
97.20,0.16,11604.81,-7.31
98.40,0.16,11641.76,-1.77
99.60,0.17,11677.38,-1.76
100.80,0.17,11713.52,-1.73
102.00,0.17,11748.59,-1.75
103.20,0.17,11782.55,-1.74
104.40,0.17,11816.15,-1.74
105.60,0.18,11849.13,-1.74
106.80,0.18,11883.71,-1.74
108.00,0.18,11915.59,-1.74
109.20,0.18,11948.19,-1.74
110.40,0.18,11980.33,-1.74
111.60,0.19,12011.41,-1.74
112.80,0.19,12042.20,-1.74
114.00,0.19,12071.78,-1.74
115.20,0.19,12101.91,-1.74
116.40,0.19,12131.04,-1.74
117.60,0.20,12160.00,-1.74
118.80,0.20,12189.94,-1.74
120.00,0.20,12217.04,-1.74
121.20,0.20,12246.22,-1.74
122.40,0.20,12274.18,-1.74
123.60,0.21,12300.07,-1.74
124.80,0.21,12326.31,-1.75
126.00,0.21,12353.62,-1.74
127.20,0.21,12379.35,-1.75
128.40,0.21,12404.45,-1.75
129.60,0.22,12429.89,-1.74
130.80,0.22,12454.85,-1.76
132.00,0.22,12479.80,-1.76
133.20,0.22,12503.44,-1.75
134.40,0.22,12527.28,-1.75
135.60,0.23,12550.58,-1.74
136.80,0.23,12573.46,-1.74
138.00,0.23,12595.80,-1.75
139.20,0.23,12618.81,-1.75
140.40,0.23,12641.15,-1.74
141.60,0.24,12663.84,-1.75
142.80,0.24,12684.78,-1.75
144.00,0.24,12705.88,-1.75
145.20,0.24,12726.78,-1.74
146.40,0.24,12748.03,-1.75
147.60,0.25,12767.26,-1.75
148.80,0.25,12787.55,-1.75
150.00,0.25,12808.65,-1.75
151.20,0.25,12828.43,-1.75
152.40,0.25,12846.82,-1.74
153.60,0.26,12865.65,-1.75
154.80,0.26,12883.93,-1.75
156.00,0.26,12902.10,-1.75
157.20,0.26,12920.03,-1.75
158.40,0.26,12938.30,-1.74
159.60,0.27,12956.29,-1.75
160.80,0.27,12974.23,-1.75
162.00,0.27,12990.81,-1.75
163.20,0.27,13008.10,-1.74
164.40,0.27,13024.03,-1.75
165.60,0.28,13039.71,-1.75
166.80,0.28,13055.70,-1.74
168.00,0.28,13072.25,-1.74
169.20,0.28,13088.00,-1.75
170.40,0.28,13104.76,-1.75
171.60,0.29,13119.41,-1.75
172.80,0.29,13134.45,-1.75
174.00,0.29,13147.99,-1.74
175.20,0.29,13162.74,-1.75
176.40,0.29,13177.23,-1.75
177.60,0.30,13191.44,-1.75
178.80,0.30,13206.54,-1.74
180.00,0.30,13220.64,-1.75
181.20,0.30,13234.06,-1.75
182.40,0.30,13246.64,-1.75
183.60,0.31,13258.73,-1.75
184.80,0.31,13271.96,-1.75
186.00,0.31,13283.93,-1.74
187.20,0.31,13297.41,-1.75
188.40,0.31,13310.08,-1.75
189.60,0.32,13323.37,-1.75
190.80,0.32,13335.28,-1.75
192.00,0.32,13346.38,-1.75
193.20,0.32,13357.09,-1.75
194.40,0.32,13368.34,-1.75
195.60,0.33,13380.42,-1.75
196.80,0.33,13392.03,-1.75
198.00,0.33,13403.62,-1.75
199.20,0.33,13415.25,-1.75
200.40,0.33,13425.16,-1.75
201.60,0.34,13432.88,-1.75
202.80,0.34,13444.12,-1.75
204.00,0.34,13454.44,-1.74
205.20,0.34,13464.90,-1.75
206.40,0.34,13474.70,-1.75
207.60,0.35,13485.25,-1.75
208.80,0.35,13495.28,-1.75
210.00,0.35,13503.45,-1.75
211.20,0.35,13511.07,-1.74
212.40,0.35,13520.73,-1.75
213.60,0.36,13529.42,-1.75
214.80,0.36,13538.10,-1.75
216.00,0.36,13547.58,-1.75
217.20,0.36,13556.46,-1.75
218.40,0.36,13564.76,-1.74
219.60,0.37,13572.05,-1.75
220.80,0.37,13580.02,-1.75
222.00,0.37,13587.09,-1.75
223.20,0.37,13595.80,-1.74
224.40,0.37,13604.29,-1.75
225.60,0.38,13611.17,-1.75
226.80,0.38,13619.06,-1.75
228.00,0.38,13626.03,-1.75
229.20,0.38,13633.45,-1.75
230.40,0.38,13639.26,-1.75
231.60,0.39,13646.20,-1.74
232.80,0.39,13652.82,-1.75
234.00,0.39,13660.50,-1.75
235.20,0.39,13665.98,-1.75
236.40,0.39,13672.74,-1.75
237.60,0.40,13679.74,-1.75
238.80,0.40,13685.70,-1.75
240.00,0.40,13690.34,-1.75
241.20,0.40,13696.46,-1.75
242.40,0.40,13702.07,-1.75
243.60,0.41,13707.86,-1.75
244.80,0.41,13713.10,-1.75
246.00,0.41,13718.84,-1.75
247.20,0.41,13724.15,-1.75
248.40,0.41,13729.91,-1.74
249.60,0.42,13734.27,-1.74
250.80,0.42,13738.81,-1.75
252.00,0.42,13744.36,-1.75
253.20,0.42,13748.62,-1.75
254.40,0.42,13753.69,-1.75
255.60,0.43,13757.43,-1.75
256.80,0.43,13762.73,-1.75
258.00,0.43,13767.19,-1.75
259.20,0.43,13770.97,-1.75
260.40,0.43,13774.87,-1.75
261.60,0.44,13779.66,-1.75
262.80,0.44,13783.17,-1.75
264.00,0.44,13785.74,-1.75
265.20,0.44,13789.45,-1.75
266.40,0.44,13793.76,-1.75
267.60,0.45,13797.93,-1.75
268.80,0.45,13800.80,-1.75
270.00,0.45,13803.52,-1.75
271.20,0.45,13806.65,-1.75
272.40,0.45,13808.64,-1.75
273.60,0.46,13812.78,-1.75
274.80,0.46,13815.73,-1.75
276.00,0.46,13818.61,-1.75
277.20,0.46,13821.71,-1.75
278.40,0.46,13824.06,-1.75
279.60,0.47,13826.52,-1.75
280.80,0.47,13827.69,-1.75
282.00,0.47,13830.00,-1.75
283.20,0.47,13832.01,-1.75
284.40,0.47,13834.66,-1.75
285.60,0.48,13837.40,-1.75
286.80,0.48,13839.29,-1.75
288.00,0.48,13840.63,-1.75
289.20,0.48,13841.75,-1.75
290.40,0.48,13843.25,-1.75
291.60,0.49,13843.94,-1.75
292.80,0.49,13845.56,-1.75
294.00,0.49,13847.81,-1.75
295.20,0.49,13849.04,-1.75
296.40,0.49,13850.28,-1.75
297.60,0.50,13850.47,-1.74
298.80,0.50,13850.66,-1.75
300.00,0.50,13849.30,-1.75
301.20,0.50,13850.69,-1.75
302.40,0.50,13851.24,-1.75
303.60,0.51,13852.43,-1.75
304.80,0.51,13853.17,-1.75
306.00,0.51,13853.27,-1.75
307.20,0.51,13853.11,-1.75
308.40,0.51,13851.44,-1.75
309.60,0.52,13849.85,-1.75
310.80,0.52,13849.64,-1.75
312.00,0.52,13849.13,-1.75
313.20,0.52,13847.91,-1.75
314.40,0.52,13847.56,-1.75
315.60,0.53,13846.98,-1.75
316.80,0.53,13844.69,-1.75
318.00,0.53,13842.78,-1.74
319.20,0.53,13840.03,-1.75
320.40,0.53,13838.34,-1.75
321.60,0.54,13836.19,-1.75
322.80,0.54,13834.09,-1.75
324.00,0.54,13831.92,-1.75
325.20,0.54,13828.81,-1.75
326.40,0.54,13823.86,-1.75
327.60,0.55,13819.27,-1.75
328.80,0.55,13815.39,-1.75
330.00,0.55,13810.13,-1.75
331.20,0.55,13805.14,-1.75
332.40,0.55,13800.00,-1.75
333.60,0.56,13794.06,-1.75
334.80,0.56,13787.99,-1.75
336.00,0.56,13779.64,-1.75
337.20,0.56,13770.23,-1.75
338.40,0.56,13761.28,-1.75
339.60,0.57,13751.04,-1.75
340.80,0.57,13740.91,-1.75
342.00,0.57,13729.41,-1.75
343.20,0.57,13715.94,-1.75
344.40,0.57,13700.64,-1.75
345.60,0.58,13683.59,-1.75
346.80,0.58,13664.24,-1.75
348.00,0.58,13643.98,-1.75
349.20,0.58,13620.62,-1.75
350.40,0.58,13595.12,-1.75
351.60,0.59,13565.64,-1.75
352.80,0.59,13531.88,-1.74
354.00,0.59,13481.61,-1.75
354.48,0.59,10088.40,-1.74
354.48,0.59,7813.26,-1.74